pos1_x,pos1_y,pos2_x,pos2_y,pos3_x,pos3_y,pos4_x,pos4_y,pos5_x,pos5_y,pos6_x,pos6_y,thisN,thisTrialN,thisRepN,img_query,img_query_w,img_query_h,img_query_disp_w,img_query_disp_h,sam_1,sam_1_w,sam_1_h,sam_1_disp_w,sam_1_disp_h,sam_2,sam_2_w,sam_2_h,sam_2_disp_w,sam_2_disp_h,sam_3,sam_3_w,sam_3_h,sam_3_disp_w,sam_3_disp_h,sam_4,sam_4_w,sam_4_h,sam_4_disp_w,sam_4_disp_h,sam_5,sam_5_w,sam_5_h,sam_5_disp_w,sam_5_disp_h,img_targ,targ_w,targ_h,targ_disp_w,targ_disp_h,key_next_1.keys,key_next_1.rt,key_next_1.duration,position_loop.thisRepN,position_loop.thisTrialN,position_loop.thisN,position_loop.thisIndex,medTrial.thisRepN,medTrial.thisTrialN,medTrial.thisN,medTrial.thisIndex,thisRow.t,notes,key_next_1.started,medTrial.key_next_1.keys,medTrial.key_next_1.rt,medTrial.key_next_1.duration,participant,session,date,expName,expVersion,psychopyVersion,expStart,
,,,,,,,,,,,,,,,,,,,,,,,,,,,,,,,,,,,,,,,,,,,,,,,,,,,,,,,,,,,,,,,,,,,,001,2025-06-27_09h55.56.865,pilot_study,,2025.1.1,2025-06-27 09h56.07.126110 -0400,
0.55,0.0,0.0,-0.35,0.55,-0.35,-0.55,0.0,0.0,0.0,-0.55,-0.35,0,0,0,resources/images/medium/med_Q5.jpg,1024,768,0.3,0.225,resources/images/medium/med_S1_5.jpg,1024,768,0.3,0.225,resources/images/medium/med_S2_5.jpg,1024,768,0.25,0.1875,resources/images/medium/med_S3_5.jpg,3264,1840,0.25,0.140931373,resources/images/medium/med_S4_5.jpg,768,1024,0.1875,0.25,resources/images/medium/med_S5_5.jpg,350,233,0.25,0.166428571,resources/images/medium/med_T5.jpg,768,1024,0.1875,0.25,space,0.9646027489943663,None,0,0,0,2,0,0,0,4,32.97207758401055,,32.97207758401055,space,0.9646027489943663,None,,001,2025-06-27_09h55.56.865,pilot_study,,2025.1.1,2025-06-27 09h56.07.126110 -0400,
0.55,0.0,0.0,-0.35,0.55,-0.35,-0.55,0.0,0.0,0.0,-0.55,-0.35,1,1,0,resources/images/medium/med_Q3.jpg,1024,768,0.3,0.225,resources/images/medium/med_S1_3.jpg,4160,2340,0.3,0.16875,resources/images/medium/med_S2_3.jpg,1024,768,0.25,0.1875,resources/images/medium/med_S3_3.jpg,1024,768,0.25,0.1875,resources/images/medium/med_S4_3.jpg,350,197,0.25,0.140714286,resources/images/medium/med_S5_3.jpg,2592,4608,0.140625,0.25,resources/images/medium/med_T3.jpg,1024,768,0.25,0.1875,space,1.077603583005839,None,0,0,0,2,0,1,1,2,34.31787429199903,,34.31787429199903,space,1.077603583005839,None,,001,2025-06-27_09h55.56.865,pilot_study,,2025.1.1,2025-06-27 09h56.07.126110 -0400,
0.55,0.0,0.0,-0.35,0.55,-0.35,-0.55,0.0,0.0,0.0,-0.55,-0.35,2,2,0,resources/images/medium/med_Q4.jpg,768,1024,0.225,0.3,resources/images/medium/med_S1_4.jpg,1024,768,0.3,0.225,resources/images/medium/med_S2_4.jpg,350,234,0.25,0.167142857,resources/images/medium/med_S3_4.jpg,350,341,0.25,0.243571429,resources/images/medium/med_S4_4.jpg,768,1024,0.1875,0.25,resources/images/medium/med_S5_4.jpg,350,208,0.25,0.148571429,resources/images/medium/med_T4.jpg,768,1024,0.1875,0.25,space,0.5119050409994088,None,0,0,0,2,0,2,2,3,35.499939209010336,,35.499939209010336,space,0.5119050409994088,None,,001,2025-06-27_09h55.56.865,pilot_study,,2025.1.1,2025-06-27 09h56.07.126110 -0400,
0.55,0.0,0.0,-0.35,0.55,-0.35,-0.55,0.0,0.0,0.0,-0.55,-0.35,3,3,0,resources/images/medium/med_Q1.jpg,4032,3024,0.3,0.225,resources/images/medium/med_S1_1.jpg,768,1024,0.225,0.3,resources/images/medium/med_S2_1.jpg,768,1024,0.1875,0.25,resources/images/medium/med_S3_1.jpg,350,233,0.25,0.166428571,resources/images/medium/med_S4_1.jpg,768,1024,0.1875,0.25,resources/images/medium/med_S5_1.jpg,768,1040,0.184615385,0.25,resources/images/medium/med_T1.jpg,1024,768,0.25,0.1875,space,0.4188682910025818,None,0,0,0,2,0,3,3,0,36.22814416700567,,36.22814416700567,space,0.4188682910025818,None,,001,2025-06-27_09h55.56.865,pilot_study,,2025.1.1,2025-06-27 09h56.07.126110 -0400,
0.55,0.0,0.0,-0.35,0.55,-0.35,-0.55,0.0,0.0,0.0,-0.55,-0.35,4,4,0,resources/images/medium/med_Q2.jpg,1024,768,0.3,0.225,resources/images/medium/med_S1_2.jpg,4032,3024,0.3,0.225,resources/images/medium/med_S2_2.jpg,250,233,0.25,0.233,resources/images/medium/med_S3_2.jpg,1024,768,0.25,0.1875,resources/images/medium/med_S4_2.jpg,350,233,0.25,0.166428571,resources/images/medium/med_S5_2.jpg,350,233,0.25,0.166428571,resources/images/medium/med_T2.jpg,4032,2268,0.25,0.140625,space,0.49126708300900646,None,0,0,0,2,0,4,4,1,36.924397459006286,,36.924397459006286,space,0.49126708300900646,None,,001,2025-06-27_09h55.56.865,pilot_study,,2025.1.1,2025-06-27 09h56.07.126110 -0400,
0.55,0.0,0.0,-0.35,0.55,-0.35,-0.55,0.0,0.0,0.0,-0.55,-0.35,5,0,1,resources/images/medium/med_Q1.jpg,4032,3024,0.3,0.225,resources/images/medium/med_S1_1.jpg,768,1024,0.225,0.3,resources/images/medium/med_S2_1.jpg,768,1024,0.1875,0.25,resources/images/medium/med_S3_1.jpg,350,233,0.25,0.166428571,resources/images/medium/med_S4_1.jpg,768,1024,0.1875,0.25,resources/images/medium/med_S5_1.jpg,768,1040,0.184615385,0.25,resources/images/medium/med_T1.jpg,1024,768,0.25,0.1875,space,0.47517179101123475,None,0,0,0,2,1,0,5,0,37.65087845901144,,37.65087845901144,space,0.47517179101123475,None,,001,2025-06-27_09h55.56.865,pilot_study,,2025.1.1,2025-06-27 09h56.07.126110 -0400,
0.55,0.0,0.0,-0.35,0.55,-0.35,-0.55,0.0,0.0,0.0,-0.55,-0.35,6,1,1,resources/images/medium/med_Q2.jpg,1024,768,0.3,0.225,resources/images/medium/med_S1_2.jpg,4032,3024,0.3,0.225,resources/images/medium/med_S2_2.jpg,250,233,0.25,0.233,resources/images/medium/med_S3_2.jpg,1024,768,0.25,0.1875,resources/images/medium/med_S4_2.jpg,350,233,0.25,0.166428571,resources/images/medium/med_S5_2.jpg,350,233,0.25,0.166428571,resources/images/medium/med_T2.jpg,4032,2268,0.25,0.140625,space,0.29056300000229385,None,0,0,0,2,1,1,6,1,38.37934958400729,,38.37934958400729,space,0.29056300000229385,None,,001,2025-06-27_09h55.56.865,pilot_study,,2025.1.1,2025-06-27 09h56.07.126110 -0400,
0.55,0.0,0.0,-0.35,0.55,-0.35,-0.55,0.0,0.0,0.0,-0.55,-0.35,7,2,1,resources/images/medium/med_Q5.jpg,1024,768,0.3,0.225,resources/images/medium/med_S1_5.jpg,1024,768,0.3,0.225,resources/images/medium/med_S2_5.jpg,1024,768,0.25,0.1875,resources/images/medium/med_S3_5.jpg,3264,1840,0.25,0.140931373,resources/images/medium/med_S4_5.jpg,768,1024,0.1875,0.25,resources/images/medium/med_S5_5.jpg,350,233,0.25,0.166428571,resources/images/medium/med_T5.jpg,768,1024,0.1875,0.25,space,0.31347799899231177,None,0,0,0,2,1,2,7,4,38.813937042010366,,38.813937042010366,space,0.31347799899231177,None,,001,2025-06-27_09h55.56.865,pilot_study,,2025.1.1,2025-06-27 09h56.07.126110 -0400,
0.55,0.0,0.0,-0.35,0.55,-0.35,-0.55,0.0,0.0,0.0,-0.55,-0.35,8,3,1,resources/images/medium/med_Q4.jpg,768,1024,0.225,0.3,resources/images/medium/med_S1_4.jpg,1024,768,0.3,0.225,resources/images/medium/med_S2_4.jpg,350,234,0.25,0.167142857,resources/images/medium/med_S3_4.jpg,350,341,0.25,0.243571429,resources/images/medium/med_S4_4.jpg,768,1024,0.1875,0.25,resources/images/medium/med_S5_4.jpg,350,208,0.25,0.148571429,resources/images/medium/med_T4.jpg,768,1024,0.1875,0.25,space,0.3336717910133302,None,0,0,0,2,1,3,8,3,39.20050600000832,,39.20050600000832,space,0.3336717910133302,None,,001,2025-06-27_09h55.56.865,pilot_study,,2025.1.1,2025-06-27 09h56.07.126110 -0400,
0.55,0.0,0.0,-0.35,0.55,-0.35,-0.55,0.0,0.0,0.0,-0.55,-0.35,9,4,1,resources/images/medium/med_Q3.jpg,1024,768,0.3,0.225,resources/images/medium/med_S1_3.jpg,4160,2340,0.3,0.16875,resources/images/medium/med_S2_3.jpg,1024,768,0.25,0.1875,resources/images/medium/med_S3_3.jpg,1024,768,0.25,0.1875,resources/images/medium/med_S4_3.jpg,350,197,0.25,0.140714286,resources/images/medium/med_S5_3.jpg,2592,4608,0.140625,0.25,resources/images/medium/med_T3.jpg,1024,768,0.25,0.1875,space,0.2721544990054099,None,0,0,0,2,1,4,9,2,39.80000724999991,,39.80000724999991,space,0.2721544990054099,None,,001,2025-06-27_09h55.56.865,pilot_study,,2025.1.1,2025-06-27 09h56.07.126110 -0400,
0.55,0.0,0.0,-0.35,0.55,-0.35,-0.55,0.0,0.0,0.0,-0.55,-0.35,10,0,2,resources/images/medium/med_Q2.jpg,1024,768,0.3,0.225,resources/images/medium/med_S1_2.jpg,4032,3024,0.3,0.225,resources/images/medium/med_S2_2.jpg,250,233,0.25,0.233,resources/images/medium/med_S3_2.jpg,1024,768,0.25,0.1875,resources/images/medium/med_S4_2.jpg,350,233,0.25,0.166428571,resources/images/medium/med_S5_2.jpg,350,233,0.25,0.166428571,resources/images/medium/med_T2.jpg,4032,2268,0.25,0.140625,space,0.1645870409993222,None,0,0,0,2,2,0,10,1,40.32098012500501,,40.32098012500501,space,0.1645870409993222,None,,001,2025-06-27_09h55.56.865,pilot_study,,2025.1.1,2025-06-27 09h56.07.126110 -0400,
0.55,0.0,0.0,-0.35,0.55,-0.35,-0.55,0.0,0.0,0.0,-0.55,-0.35,11,1,2,resources/images/medium/med_Q5.jpg,1024,768,0.3,0.225,resources/images/medium/med_S1_5.jpg,1024,768,0.3,0.225,resources/images/medium/med_S2_5.jpg,1024,768,0.25,0.1875,resources/images/medium/med_S3_5.jpg,3264,1840,0.25,0.140931373,resources/images/medium/med_S4_5.jpg,768,1024,0.1875,0.25,resources/images/medium/med_S5_5.jpg,350,233,0.25,0.166428571,resources/images/medium/med_T5.jpg,768,1024,0.1875,0.25,space,0.2605733739910647,None,0,0,0,2,2,1,11,4,40.623777542001335,,40.623777542001335,space,0.2605733739910647,None,,001,2025-06-27_09h55.56.865,pilot_study,,2025.1.1,2025-06-27 09h56.07.126110 -0400,
0.55,0.0,0.0,-0.35,0.55,-0.35,-0.55,0.0,0.0,0.0,-0.55,-0.35,12,2,2,resources/images/medium/med_Q1.jpg,4032,3024,0.3,0.225,resources/images/medium/med_S1_1.jpg,768,1024,0.225,0.3,resources/images/medium/med_S2_1.jpg,768,1024,0.1875,0.25,resources/images/medium/med_S3_1.jpg,350,233,0.25,0.166428571,resources/images/medium/med_S4_1.jpg,768,1024,0.1875,0.25,resources/images/medium/med_S5_1.jpg,768,1040,0.184615385,0.25,resources/images/medium/med_T1.jpg,1024,768,0.25,0.1875,space,0.30328166599792894,None,0,0,0,2,2,2,12,0,41.070341750004445,,41.070341750004445,space,0.30328166599792894,None,,001,2025-06-27_09h55.56.865,pilot_study,,2025.1.1,2025-06-27 09h56.07.126110 -0400,
0.55,0.0,0.0,-0.35,0.55,-0.35,-0.55,0.0,0.0,0.0,-0.55,-0.35,13,3,2,resources/images/medium/med_Q4.jpg,768,1024,0.225,0.3,resources/images/medium/med_S1_4.jpg,1024,768,0.3,0.225,resources/images/medium/med_S2_4.jpg,350,234,0.25,0.167142857,resources/images/medium/med_S3_4.jpg,350,341,0.25,0.243571429,resources/images/medium/med_S4_4.jpg,768,1024,0.1875,0.25,resources/images/medium/med_S5_4.jpg,350,208,0.25,0.148571429,resources/images/medium/med_T4.jpg,768,1024,0.1875,0.25,space,0.32191708200844005,None,0,0,0,2,2,3,13,3,41.46028741700866,,41.46028741700866,space,0.32191708200844005,None,,001,2025-06-27_09h55.56.865,pilot_study,,2025.1.1,2025-06-27 09h56.07.126110 -0400,
0.55,0.0,0.0,-0.35,0.55,-0.35,-0.55,0.0,0.0,0.0,-0.55,-0.35,14,4,2,resources/images/medium/med_Q3.jpg,1024,768,0.3,0.225,resources/images/medium/med_S1_3.jpg,4160,2340,0.3,0.16875,resources/images/medium/med_S2_3.jpg,1024,768,0.25,0.1875,resources/images/medium/med_S3_3.jpg,1024,768,0.25,0.1875,resources/images/medium/med_S4_3.jpg,350,197,0.25,0.140714286,resources/images/medium/med_S5_3.jpg,2592,4608,0.140625,0.25,resources/images/medium/med_T3.jpg,1024,768,0.25,0.1875,space,0.3095194580091629,None,0,0,0,2,2,4,14,2,42.05024450000201,,42.05024450000201,space,0.3095194580091629,None,,001,2025-06-27_09h55.56.865,pilot_study,,2025.1.1,2025-06-27 09h56.07.126110 -0400,
0.55,0.0,0.0,-0.35,0.55,-0.35,-0.55,0.0,0.0,0.0,-0.55,-0.35,15,0,3,resources/images/medium/med_Q2.jpg,1024,768,0.3,0.225,resources/images/medium/med_S1_2.jpg,4032,3024,0.3,0.225,resources/images/medium/med_S2_2.jpg,250,233,0.25,0.233,resources/images/medium/med_S3_2.jpg,1024,768,0.25,0.1875,resources/images/medium/med_S4_2.jpg,350,233,0.25,0.166428571,resources/images/medium/med_S5_2.jpg,350,233,0.25,0.166428571,resources/images/medium/med_T2.jpg,4032,2268,0.25,0.140625,space,0.2997388329968089,None,0,0,0,2,3,0,15,1,42.6187640420103,,42.6187640420103,space,0.2997388329968089,None,,001,2025-06-27_09h55.56.865,pilot_study,,2025.1.1,2025-06-27 09h56.07.126110 -0400,
0.55,0.0,0.0,-0.35,0.55,-0.35,-0.55,0.0,0.0,0.0,-0.55,-0.35,16,1,3,resources/images/medium/med_Q3.jpg,1024,768,0.3,0.225,resources/images/medium/med_S1_3.jpg,4160,2340,0.3,0.16875,resources/images/medium/med_S2_3.jpg,1024,768,0.25,0.1875,resources/images/medium/med_S3_3.jpg,1024,768,0.25,0.1875,resources/images/medium/med_S4_3.jpg,350,197,0.25,0.140714286,resources/images/medium/med_S5_3.jpg,2592,4608,0.140625,0.25,resources/images/medium/med_T3.jpg,1024,768,0.25,0.1875,space,0.2860005410038866,None,0,0,0,2,3,1,16,2,43.19519479200244,,43.19519479200244,space,0.2860005410038866,None,,001,2025-06-27_09h55.56.865,pilot_study,,2025.1.1,2025-06-27 09h56.07.126110 -0400,
0.55,0.0,0.0,-0.35,0.55,-0.35,-0.55,0.0,0.0,0.0,-0.55,-0.35,17,2,3,resources/images/medium/med_Q5.jpg,1024,768,0.3,0.225,resources/images/medium/med_S1_5.jpg,1024,768,0.3,0.225,resources/images/medium/med_S2_5.jpg,1024,768,0.25,0.1875,resources/images/medium/med_S3_5.jpg,3264,1840,0.25,0.140931373,resources/images/medium/med_S4_5.jpg,768,1024,0.1875,0.25,resources/images/medium/med_S5_5.jpg,350,233,0.25,0.166428571,resources/images/medium/med_T5.jpg,768,1024,0.1875,0.25,space,0.607696916005807,None,0,0,0,2,3,2,17,4,43.62066408401006,,43.62066408401006,space,0.607696916005807,None,,001,2025-06-27_09h55.56.865,pilot_study,,2025.1.1,2025-06-27 09h56.07.126110 -0400,
0.55,0.0,0.0,-0.35,0.55,-0.35,-0.55,0.0,0.0,0.0,-0.55,-0.35,18,3,3,resources/images/medium/med_Q4.jpg,768,1024,0.225,0.3,resources/images/medium/med_S1_4.jpg,1024,768,0.3,0.225,resources/images/medium/med_S2_4.jpg,350,234,0.25,0.167142857,resources/images/medium/med_S3_4.jpg,350,341,0.25,0.243571429,resources/images/medium/med_S4_4.jpg,768,1024,0.1875,0.25,resources/images/medium/med_S5_4.jpg,350,208,0.25,0.148571429,resources/images/medium/med_T4.jpg,768,1024,0.1875,0.25,space,0.4271326659945771,None,0,0,0,2,3,3,18,3,44.31011183401279,,44.31011183401279,space,0.4271326659945771,None,,001,2025-06-27_09h55.56.865,pilot_study,,2025.1.1,2025-06-27 09h56.07.126110 -0400,
0.55,0.0,0.0,-0.35,0.55,-0.35,-0.55,0.0,0.0,0.0,-0.55,-0.35,19,4,3,resources/images/medium/med_Q1.jpg,4032,3024,0.3,0.225,resources/images/medium/med_S1_1.jpg,768,1024,0.225,0.3,resources/images/medium/med_S2_1.jpg,768,1024,0.1875,0.25,resources/images/medium/med_S3_1.jpg,350,233,0.25,0.166428571,resources/images/medium/med_S4_1.jpg,768,1024,0.1875,0.25,resources/images/medium/med_S5_1.jpg,768,1040,0.184615385,0.25,resources/images/medium/med_T1.jpg,1024,768,0.25,0.1875,space,0.33415954100200906,None,0,0,0,2,3,4,19,0,44.92577837500721,,44.92577837500721,space,0.33415954100200906,None,,001,2025-06-27_09h55.56.865,pilot_study,,2025.1.1,2025-06-27 09h56.07.126110 -0400,
0.55,0.0,0.0,-0.35,0.55,-0.35,-0.55,0.0,0.0,0.0,-0.55,-0.35,20,0,4,resources/images/medium/med_Q2.jpg,1024,768,0.3,0.225,resources/images/medium/med_S1_2.jpg,4032,3024,0.3,0.225,resources/images/medium/med_S2_2.jpg,250,233,0.25,0.233,resources/images/medium/med_S3_2.jpg,1024,768,0.25,0.1875,resources/images/medium/med_S4_2.jpg,350,233,0.25,0.166428571,resources/images/medium/med_S5_2.jpg,350,233,0.25,0.166428571,resources/images/medium/med_T2.jpg,4032,2268,0.25,0.140625,space,0.30907416599802673,None,0,0,0,2,4,0,20,1,45.513541874999646,,45.513541874999646,space,0.30907416599802673,None,,001,2025-06-27_09h55.56.865,pilot_study,,2025.1.1,2025-06-27 09h56.07.126110 -0400,
0.55,0.0,0.0,-0.35,0.55,-0.35,-0.55,0.0,0.0,0.0,-0.55,-0.35,21,1,4,resources/images/medium/med_Q3.jpg,1024,768,0.3,0.225,resources/images/medium/med_S1_3.jpg,4160,2340,0.3,0.16875,resources/images/medium/med_S2_3.jpg,1024,768,0.25,0.1875,resources/images/medium/med_S3_3.jpg,1024,768,0.25,0.1875,resources/images/medium/med_S4_3.jpg,350,197,0.25,0.140714286,resources/images/medium/med_S5_3.jpg,2592,4608,0.140625,0.25,resources/images/medium/med_T3.jpg,1024,768,0.25,0.1875,space,0.30369783300557174,None,0,0,0,2,4,1,21,2,46.09066695900401,,46.09066695900401,space,0.30369783300557174,None,,001,2025-06-27_09h55.56.865,pilot_study,,2025.1.1,2025-06-27 09h56.07.126110 -0400,
0.55,0.0,0.0,-0.35,0.55,-0.35,-0.55,0.0,0.0,0.0,-0.55,-0.35,22,2,4,resources/images/medium/med_Q5.jpg,1024,768,0.3,0.225,resources/images/medium/med_S1_5.jpg,1024,768,0.3,0.225,resources/images/medium/med_S2_5.jpg,1024,768,0.25,0.1875,resources/images/medium/med_S3_5.jpg,3264,1840,0.25,0.140931373,resources/images/medium/med_S4_5.jpg,768,1024,0.1875,0.25,resources/images/medium/med_S5_5.jpg,350,233,0.25,0.166428571,resources/images/medium/med_T5.jpg,768,1024,0.1875,0.25,space,0.3424245410133153,None,0,0,0,2,4,2,22,4,46.542079959006514,,46.542079959006514,space,0.3424245410133153,None,,001,2025-06-27_09h55.56.865,pilot_study,,2025.1.1,2025-06-27 09h56.07.126110 -0400,
0.55,0.0,0.0,-0.35,0.55,-0.35,-0.55,0.0,0.0,0.0,-0.55,-0.35,23,3,4,resources/images/medium/med_Q1.jpg,4032,3024,0.3,0.225,resources/images/medium/med_S1_1.jpg,768,1024,0.225,0.3,resources/images/medium/med_S2_1.jpg,768,1024,0.1875,0.25,resources/images/medium/med_S3_1.jpg,350,233,0.25,0.166428571,resources/images/medium/med_S4_1.jpg,768,1024,0.1875,0.25,resources/images/medium/med_S5_1.jpg,768,1040,0.184615385,0.25,resources/images/medium/med_T1.jpg,1024,768,0.25,0.1875,space,0.2848569990019314,None,0,0,0,2,4,3,23,0,47.06694666700787,,47.06694666700787,space,0.2848569990019314,None,,001,2025-06-27_09h55.56.865,pilot_study,,2025.1.1,2025-06-27 09h56.07.126110 -0400,
0.55,0.0,0.0,-0.35,0.55,-0.35,-0.55,0.0,0.0,0.0,-0.55,-0.35,24,4,4,resources/images/medium/med_Q4.jpg,768,1024,0.225,0.3,resources/images/medium/med_S1_4.jpg,1024,768,0.3,0.225,resources/images/medium/med_S2_4.jpg,350,234,0.25,0.167142857,resources/images/medium/med_S3_4.jpg,350,341,0.25,0.243571429,resources/images/medium/med_S4_4.jpg,768,1024,0.1875,0.25,resources/images/medium/med_S5_4.jpg,350,208,0.25,0.148571429,resources/images/medium/med_T4.jpg,768,1024,0.1875,0.25,space,0.3710969579988159,None,0,0,0,2,4,4,24,3,47.42779483400227,,47.42779483400227,space,0.3710969579988159,None,,001,2025-06-27_09h55.56.865,pilot_study,,2025.1.1,2025-06-27 09h56.07.126110 -0400,
0.55,0.0,0.0,-0.35,0.55,-0.35,-0.55,0.0,0.0,0.0,-0.55,-0.35,0,0,0,,,,,,,,,,,,,,,,,,,,,,,,,,,,,,,,,,,,,,,0,0,0,2,,,,,,,,,,,,001,2025-06-27_09h55.56.865,pilot_study,,2025.1.1,2025-06-27 09h56.07.126110 -0400,
0.55,-0.35,0.0,-0.35,-0.55,-0.35,0.55,0.0,-0.55,0.0,0.0,0.0,0,0,0,resources/images/medium/med_Q3.jpg,1024,768,0.3,0.225,resources/images/medium/med_S1_3.jpg,4160,2340,0.3,0.16875,resources/images/medium/med_S2_3.jpg,1024,768,0.25,0.1875,resources/images/medium/med_S3_3.jpg,1024,768,0.25,0.1875,resources/images/medium/med_S4_3.jpg,350,197,0.25,0.140714286,resources/images/medium/med_S5_3.jpg,2592,4608,0.140625,0.25,resources/images/medium/med_T3.jpg,1024,768,0.25,0.1875,space,0.3338155410019681,None,0,1,1,4,0,0,0,2,48.06962970900349,,48.06962970900349,space,0.3338155410019681,None,,001,2025-06-27_09h55.56.865,pilot_study,,2025.1.1,2025-06-27 09h56.07.126110 -0400,
0.55,-0.35,0.0,-0.35,-0.55,-0.35,0.55,0.0,-0.55,0.0,0.0,0.0,1,1,0,resources/images/medium/med_Q1.jpg,4032,3024,0.3,0.225,resources/images/medium/med_S1_1.jpg,768,1024,0.225,0.3,resources/images/medium/med_S2_1.jpg,768,1024,0.1875,0.25,resources/images/medium/med_S3_1.jpg,350,233,0.25,0.166428571,resources/images/medium/med_S4_1.jpg,768,1024,0.1875,0.25,resources/images/medium/med_S5_1.jpg,768,1040,0.184615385,0.25,resources/images/medium/med_T1.jpg,1024,768,0.25,0.1875,space,0.297977706999518,None,0,1,1,4,0,1,1,0,48.60101195900643,,48.60101195900643,space,0.297977706999518,None,,001,2025-06-27_09h55.56.865,pilot_study,,2025.1.1,2025-06-27 09h56.07.126110 -0400,
0.55,-0.35,0.0,-0.35,-0.55,-0.35,0.55,0.0,-0.55,0.0,0.0,0.0,2,2,0,resources/images/medium/med_Q5.jpg,1024,768,0.3,0.225,resources/images/medium/med_S1_5.jpg,1024,768,0.3,0.225,resources/images/medium/med_S2_5.jpg,1024,768,0.25,0.1875,resources/images/medium/med_S3_5.jpg,3264,1840,0.25,0.140931373,resources/images/medium/med_S4_5.jpg,768,1024,0.1875,0.25,resources/images/medium/med_S5_5.jpg,350,233,0.25,0.166428571,resources/images/medium/med_T5.jpg,768,1024,0.1875,0.25,space,0.342459958003019,None,0,1,1,4,0,2,2,4,49.034760792012094,,49.034760792012094,space,0.342459958003019,None,,001,2025-06-27_09h55.56.865,pilot_study,,2025.1.1,2025-06-27 09h56.07.126110 -0400,
0.55,-0.35,0.0,-0.35,-0.55,-0.35,0.55,0.0,-0.55,0.0,0.0,0.0,3,3,0,resources/images/medium/med_Q4.jpg,768,1024,0.225,0.3,resources/images/medium/med_S1_4.jpg,1024,768,0.3,0.225,resources/images/medium/med_S2_4.jpg,350,234,0.25,0.167142857,resources/images/medium/med_S3_4.jpg,350,341,0.25,0.243571429,resources/images/medium/med_S4_4.jpg,768,1024,0.1875,0.25,resources/images/medium/med_S5_4.jpg,350,208,0.25,0.148571429,resources/images/medium/med_T4.jpg,768,1024,0.1875,0.25,space,0.4122292079991894,None,0,1,1,4,0,3,3,3,49.456572000010055,,49.456572000010055,space,0.4122292079991894,None,,001,2025-06-27_09h55.56.865,pilot_study,,2025.1.1,2025-06-27 09h56.07.126110 -0400,
0.55,-0.35,0.0,-0.35,-0.55,-0.35,0.55,0.0,-0.55,0.0,0.0,0.0,4,4,0,resources/images/medium/med_Q2.jpg,1024,768,0.3,0.225,resources/images/medium/med_S1_2.jpg,4032,3024,0.3,0.225,resources/images/medium/med_S2_2.jpg,250,233,0.25,0.233,resources/images/medium/med_S3_2.jpg,1024,768,0.25,0.1875,resources/images/medium/med_S4_2.jpg,350,233,0.25,0.166428571,resources/images/medium/med_S5_2.jpg,350,233,0.25,0.166428571,resources/images/medium/med_T2.jpg,4032,2268,0.25,0.140625,space,0.37328962500032503,None,0,1,1,4,0,4,4,1,50.11370012500265,,50.11370012500265,space,0.37328962500032503,None,,001,2025-06-27_09h55.56.865,pilot_study,,2025.1.1,2025-06-27 09h56.07.126110 -0400,
0.55,-0.35,0.0,-0.35,-0.55,-0.35,0.55,0.0,-0.55,0.0,0.0,0.0,5,0,1,resources/images/medium/med_Q3.jpg,1024,768,0.3,0.225,resources/images/medium/med_S1_3.jpg,4160,2340,0.3,0.16875,resources/images/medium/med_S2_3.jpg,1024,768,0.25,0.1875,resources/images/medium/med_S3_3.jpg,1024,768,0.25,0.1875,resources/images/medium/med_S4_3.jpg,350,197,0.25,0.140714286,resources/images/medium/med_S5_3.jpg,2592,4608,0.140625,0.25,resources/images/medium/med_T3.jpg,1024,768,0.25,0.1875,space,0.28010066600108985,None,0,1,1,4,1,0,5,2,50.75385608400393,,50.75385608400393,space,0.28010066600108985,None,,001,2025-06-27_09h55.56.865,pilot_study,,2025.1.1,2025-06-27 09h56.07.126110 -0400,
0.55,-0.35,0.0,-0.35,-0.55,-0.35,0.55,0.0,-0.55,0.0,0.0,0.0,6,1,1,resources/images/medium/med_Q4.jpg,768,1024,0.225,0.3,resources/images/medium/med_S1_4.jpg,1024,768,0.3,0.225,resources/images/medium/med_S2_4.jpg,350,234,0.25,0.167142857,resources/images/medium/med_S3_4.jpg,350,341,0.25,0.243571429,resources/images/medium/med_S4_4.jpg,768,1024,0.1875,0.25,resources/images/medium/med_S5_4.jpg,350,208,0.25,0.148571429,resources/images/medium/med_T4.jpg,768,1024,0.1875,0.25,space,0.326630915995338,None,0,1,1,4,1,1,6,3,51.124059000008856,,51.124059000008856,space,0.326630915995338,None,,001,2025-06-27_09h55.56.865,pilot_study,,2025.1.1,2025-06-27 09h56.07.126110 -0400,
0.55,-0.35,0.0,-0.35,-0.55,-0.35,0.55,0.0,-0.55,0.0,0.0,0.0,7,2,1,resources/images/medium/med_Q1.jpg,4032,3024,0.3,0.225,resources/images/medium/med_S1_1.jpg,768,1024,0.225,0.3,resources/images/medium/med_S2_1.jpg,768,1024,0.1875,0.25,resources/images/medium/med_S3_1.jpg,350,233,0.25,0.166428571,resources/images/medium/med_S4_1.jpg,768,1024,0.1875,0.25,resources/images/medium/med_S5_1.jpg,768,1040,0.184615385,0.25,resources/images/medium/med_T1.jpg,1024,768,0.25,0.1875,space,0.3012050410034135,None,0,1,1,4,1,2,7,0,51.633865709009115,,51.633865709009115,space,0.3012050410034135,None,,001,2025-06-27_09h55.56.865,pilot_study,,2025.1.1,2025-06-27 09h56.07.126110 -0400,
0.55,-0.35,0.0,-0.35,-0.55,-0.35,0.55,0.0,-0.55,0.0,0.0,0.0,8,3,1,resources/images/medium/med_Q5.jpg,1024,768,0.3,0.225,resources/images/medium/med_S1_5.jpg,1024,768,0.3,0.225,resources/images/medium/med_S2_5.jpg,1024,768,0.25,0.1875,resources/images/medium/med_S3_5.jpg,3264,1840,0.25,0.140931373,resources/images/medium/med_S4_5.jpg,768,1024,0.1875,0.25,resources/images/medium/med_S5_5.jpg,350,233,0.25,0.166428571,resources/images/medium/med_T5.jpg,768,1024,0.1875,0.25,space,0.3072576660051709,None,0,1,1,4,1,3,8,4,52.07971883400751,,52.07971883400751,space,0.3072576660051709,None,,001,2025-06-27_09h55.56.865,pilot_study,,2025.1.1,2025-06-27 09h56.07.126110 -0400,
0.55,-0.35,0.0,-0.35,-0.55,-0.35,0.55,0.0,-0.55,0.0,0.0,0.0,9,4,1,resources/images/medium/med_Q2.jpg,1024,768,0.3,0.225,resources/images/medium/med_S1_2.jpg,4032,3024,0.3,0.225,resources/images/medium/med_S2_2.jpg,250,233,0.25,0.233,resources/images/medium/med_S3_2.jpg,1024,768,0.25,0.1875,resources/images/medium/med_S4_2.jpg,350,233,0.25,0.166428571,resources/images/medium/med_S5_2.jpg,350,233,0.25,0.166428571,resources/images/medium/med_T2.jpg,4032,2268,0.25,0.140625,space,0.589458957008901,None,0,1,1,4,1,4,9,1,52.629211584004224,,52.629211584004224,space,0.589458957008901,None,,001,2025-06-27_09h55.56.865,pilot_study,,2025.1.1,2025-06-27 09h56.07.126110 -0400,
0.55,-0.35,0.0,-0.35,-0.55,-0.35,0.55,0.0,-0.55,0.0,0.0,0.0,10,0,2,resources/images/medium/med_Q5.jpg,1024,768,0.3,0.225,resources/images/medium/med_S1_5.jpg,1024,768,0.3,0.225,resources/images/medium/med_S2_5.jpg,1024,768,0.25,0.1875,resources/images/medium/med_S3_5.jpg,3264,1840,0.25,0.140931373,resources/images/medium/med_S4_5.jpg,768,1024,0.1875,0.25,resources/images/medium/med_S5_5.jpg,350,233,0.25,0.166428571,resources/images/medium/med_T5.jpg,768,1024,0.1875,0.25,space,0.08670374999928754,None,0,1,1,4,2,0,10,4,53.3638904170075,,53.3638904170075,space,0.08670374999928754,None,,001,2025-06-27_09h55.56.865,pilot_study,,2025.1.1,2025-06-27 09h56.07.126110 -0400,
0.55,-0.35,0.0,-0.35,-0.55,-0.35,0.55,0.0,-0.55,0.0,0.0,0.0,11,1,2,resources/images/medium/med_Q1.jpg,4032,3024,0.3,0.225,resources/images/medium/med_S1_1.jpg,768,1024,0.225,0.3,resources/images/medium/med_S2_1.jpg,768,1024,0.1875,0.25,resources/images/medium/med_S3_1.jpg,350,233,0.25,0.166428571,resources/images/medium/med_S4_1.jpg,768,1024,0.1875,0.25,resources/images/medium/med_S5_1.jpg,768,1040,0.184615385,0.25,resources/images/medium/med_T1.jpg,1024,768,0.25,0.1875,space,0.08921237499453127,None,0,1,1,4,2,1,11,0,53.61927266701241,,53.61927266701241,space,0.08921237499453127,None,,001,2025-06-27_09h55.56.865,pilot_study,,2025.1.1,2025-06-27 09h56.07.126110 -0400,
0.55,-0.35,0.0,-0.35,-0.55,-0.35,0.55,0.0,-0.55,0.0,0.0,0.0,12,2,2,resources/images/medium/med_Q2.jpg,1024,768,0.3,0.225,resources/images/medium/med_S1_2.jpg,4032,3024,0.3,0.225,resources/images/medium/med_S2_2.jpg,250,233,0.25,0.233,resources/images/medium/med_S3_2.jpg,1024,768,0.25,0.1875,resources/images/medium/med_S4_2.jpg,350,233,0.25,0.166428571,resources/images/medium/med_S5_2.jpg,350,233,0.25,0.166428571,resources/images/medium/med_T2.jpg,4032,2268,0.25,0.140625,space,0.00737133200163953,None,0,1,1,4,2,2,12,1,53.93776416699984,,53.93776416699984,space,0.00737133200163953,None,,001,2025-06-27_09h55.56.865,pilot_study,,2025.1.1,2025-06-27 09h56.07.126110 -0400,
0.55,-0.35,0.0,-0.35,-0.55,-0.35,0.55,0.0,-0.55,0.0,0.0,0.0,13,3,2,resources/images/medium/med_Q4.jpg,768,1024,0.225,0.3,resources/images/medium/med_S1_4.jpg,1024,768,0.3,0.225,resources/images/medium/med_S2_4.jpg,350,234,0.25,0.167142857,resources/images/medium/med_S3_4.jpg,350,341,0.25,0.243571429,resources/images/medium/med_S4_4.jpg,768,1024,0.1875,0.25,resources/images/medium/med_S5_4.jpg,350,208,0.25,0.148571429,resources/images/medium/med_T4.jpg,768,1024,0.1875,0.25,space,0.40030929099884816,None,0,1,1,4,2,3,13,3,54.01144537499931,,54.01144537499931,space,0.40030929099884816,None,,001,2025-06-27_09h55.56.865,pilot_study,,2025.1.1,2025-06-27 09h56.07.126110 -0400,
0.55,-0.35,0.0,-0.35,-0.55,-0.35,0.55,0.0,-0.55,0.0,0.0,0.0,14,4,2,resources/images/medium/med_Q3.jpg,1024,768,0.3,0.225,resources/images/medium/med_S1_3.jpg,4160,2340,0.3,0.16875,resources/images/medium/med_S2_3.jpg,1024,768,0.25,0.1875,resources/images/medium/med_S3_3.jpg,1024,768,0.25,0.1875,resources/images/medium/med_S4_3.jpg,350,197,0.25,0.140714286,resources/images/medium/med_S5_3.jpg,2592,4608,0.140625,0.25,resources/images/medium/med_T3.jpg,1024,768,0.25,0.1875,space,0.010151499009225518,None,0,1,1,4,2,4,14,2,54.66963937500259,,54.66963937500259,space,0.010151499009225518,None,,001,2025-06-27_09h55.56.865,pilot_study,,2025.1.1,2025-06-27 09h56.07.126110 -0400,
0.55,-0.35,0.0,-0.35,-0.55,-0.35,0.55,0.0,-0.55,0.0,0.0,0.0,15,0,3,resources/images/medium/med_Q3.jpg,1024,768,0.3,0.225,resources/images/medium/med_S1_3.jpg,4160,2340,0.3,0.16875,resources/images/medium/med_S2_3.jpg,1024,768,0.25,0.1875,resources/images/medium/med_S3_3.jpg,1024,768,0.25,0.1875,resources/images/medium/med_S4_3.jpg,350,197,0.25,0.140714286,resources/images/medium/med_S5_3.jpg,2592,4608,0.140625,0.25,resources/images/medium/med_T3.jpg,1024,768,0.25,0.1875,space,0.011459957997431047,None,0,1,1,4,3,0,15,2,54.90679987501062,,54.90679987501062,space,0.011459957997431047,None,,001,2025-06-27_09h55.56.865,pilot_study,,2025.1.1,2025-06-27 09h56.07.126110 -0400,
0.55,-0.35,0.0,-0.35,-0.55,-0.35,0.55,0.0,-0.55,0.0,0.0,0.0,16,1,3,resources/images/medium/med_Q5.jpg,1024,768,0.3,0.225,resources/images/medium/med_S1_5.jpg,1024,768,0.3,0.225,resources/images/medium/med_S2_5.jpg,1024,768,0.25,0.1875,resources/images/medium/med_S3_5.jpg,3264,1840,0.25,0.140931373,resources/images/medium/med_S4_5.jpg,768,1024,0.1875,0.25,resources/images/medium/med_S5_5.jpg,350,233,0.25,0.166428571,resources/images/medium/med_T5.jpg,768,1024,0.1875,0.25,space,0.1545409579994157,None,0,1,1,4,3,1,16,4,55.04625379201025,,55.04625379201025,space,0.1545409579994157,None,,001,2025-06-27_09h55.56.865,pilot_study,,2025.1.1,2025-06-27 09h56.07.126110 -0400,
0.55,-0.35,0.0,-0.35,-0.55,-0.35,0.55,0.0,-0.55,0.0,0.0,0.0,17,2,3,resources/images/medium/med_Q1.jpg,4032,3024,0.3,0.225,resources/images/medium/med_S1_1.jpg,768,1024,0.225,0.3,resources/images/medium/med_S2_1.jpg,768,1024,0.1875,0.25,resources/images/medium/med_S3_1.jpg,350,233,0.25,0.166428571,resources/images/medium/med_S4_1.jpg,768,1024,0.1875,0.25,resources/images/medium/med_S5_1.jpg,768,1040,0.184615385,0.25,resources/images/medium/med_T1.jpg,1024,768,0.25,0.1875,space,0.07339745700301137,None,0,1,1,4,3,2,17,0,55.381201374999364,,55.381201374999364,space,0.07339745700301137,None,,001,2025-06-27_09h55.56.865,pilot_study,,2025.1.1,2025-06-27 09h56.07.126110 -0400,
0.55,-0.35,0.0,-0.35,-0.55,-0.35,0.55,0.0,-0.55,0.0,0.0,0.0,18,3,3,resources/images/medium/med_Q2.jpg,1024,768,0.3,0.225,resources/images/medium/med_S1_2.jpg,4032,3024,0.3,0.225,resources/images/medium/med_S2_2.jpg,250,233,0.25,0.233,resources/images/medium/med_S3_2.jpg,1024,768,0.25,0.1875,resources/images/medium/med_S4_2.jpg,350,233,0.25,0.166428571,resources/images/medium/med_S5_2.jpg,350,233,0.25,0.166428571,resources/images/medium/med_T2.jpg,4032,2268,0.25,0.140625,space,0.2066677080001682,None,0,1,1,4,3,3,18,1,55.70360404200619,,55.70360404200619,space,0.2066677080001682,None,,001,2025-06-27_09h55.56.865,pilot_study,,2025.1.1,2025-06-27 09h56.07.126110 -0400,
0.55,-0.35,0.0,-0.35,-0.55,-0.35,0.55,0.0,-0.55,0.0,0.0,0.0,19,4,3,resources/images/medium/med_Q4.jpg,768,1024,0.225,0.3,resources/images/medium/med_S1_4.jpg,1024,768,0.3,0.225,resources/images/medium/med_S2_4.jpg,350,234,0.25,0.167142857,resources/images/medium/med_S3_4.jpg,350,341,0.25,0.243571429,resources/images/medium/med_S4_4.jpg,768,1024,0.1875,0.25,resources/images/medium/med_S5_4.jpg,350,208,0.25,0.148571429,resources/images/medium/med_T4.jpg,768,1024,0.1875,0.25,space,0.3203110829927027,None,0,1,1,4,3,4,19,3,55.99404341701302,,55.99404341701302,space,0.3203110829927027,None,,001,2025-06-27_09h55.56.865,pilot_study,,2025.1.1,2025-06-27 09h56.07.126110 -0400,
0.55,-0.35,0.0,-0.35,-0.55,-0.35,0.55,0.0,-0.55,0.0,0.0,0.0,20,0,4,resources/images/medium/med_Q2.jpg,1024,768,0.3,0.225,resources/images/medium/med_S1_2.jpg,4032,3024,0.3,0.225,resources/images/medium/med_S2_2.jpg,250,233,0.25,0.233,resources/images/medium/med_S3_2.jpg,1024,768,0.25,0.1875,resources/images/medium/med_S4_2.jpg,350,233,0.25,0.166428571,resources/images/medium/med_S5_2.jpg,350,233,0.25,0.166428571,resources/images/medium/med_T2.jpg,4032,2268,0.25,0.140625,space,0.15458783200301696,None,0,1,1,4,4,0,20,1,56.55309183400823,,56.55309183400823,space,0.15458783200301696,None,,001,2025-06-27_09h55.56.865,pilot_study,,2025.1.1,2025-06-27 09h56.07.126110 -0400,
0.55,-0.35,0.0,-0.35,-0.55,-0.35,0.55,0.0,-0.55,0.0,0.0,0.0,21,1,4,resources/images/medium/med_Q3.jpg,1024,768,0.3,0.225,resources/images/medium/med_S1_3.jpg,4160,2340,0.3,0.16875,resources/images/medium/med_S2_3.jpg,1024,768,0.25,0.1875,resources/images/medium/med_S3_3.jpg,1024,768,0.25,0.1875,resources/images/medium/med_S4_3.jpg,350,197,0.25,0.140714286,resources/images/medium/med_S5_3.jpg,2592,4608,0.140625,0.25,resources/images/medium/med_T3.jpg,1024,768,0.25,0.1875,space,0.10312341600365471,None,0,1,1,4,4,1,21,2,56.97722337501182,,56.97722337501182,space,0.10312341600365471,None,,001,2025-06-27_09h55.56.865,pilot_study,,2025.1.1,2025-06-27 09h56.07.126110 -0400,
0.55,-0.35,0.0,-0.35,-0.55,-0.35,0.55,0.0,-0.55,0.0,0.0,0.0,22,2,4,resources/images/medium/med_Q5.jpg,1024,768,0.3,0.225,resources/images/medium/med_S1_5.jpg,1024,768,0.3,0.225,resources/images/medium/med_S2_5.jpg,1024,768,0.25,0.1875,resources/images/medium/med_S3_5.jpg,3264,1840,0.25,0.140931373,resources/images/medium/med_S4_5.jpg,768,1024,0.1875,0.25,resources/images/medium/med_S5_5.jpg,350,233,0.25,0.166428571,resources/images/medium/med_T5.jpg,768,1024,0.1875,0.25,space,0.05013154099287931,None,0,1,1,4,4,2,22,4,57.208133750013076,,57.208133750013076,space,0.05013154099287931,None,,001,2025-06-27_09h55.56.865,pilot_study,,2025.1.1,2025-06-27 09h56.07.126110 -0400,
0.55,-0.35,0.0,-0.35,-0.55,-0.35,0.55,0.0,-0.55,0.0,0.0,0.0,23,3,4,resources/images/medium/med_Q1.jpg,4032,3024,0.3,0.225,resources/images/medium/med_S1_1.jpg,768,1024,0.225,0.3,resources/images/medium/med_S2_1.jpg,768,1024,0.1875,0.25,resources/images/medium/med_S3_1.jpg,350,233,0.25,0.166428571,resources/images/medium/med_S4_1.jpg,768,1024,0.1875,0.25,resources/images/medium/med_S5_1.jpg,768,1040,0.184615385,0.25,resources/images/medium/med_T1.jpg,1024,768,0.25,0.1875,space,0.16879787400830537,None,0,1,1,4,4,3,23,0,57.43316033401061,,57.43316033401061,space,0.16879787400830537,None,,001,2025-06-27_09h55.56.865,pilot_study,,2025.1.1,2025-06-27 09h56.07.126110 -0400,
0.55,-0.35,0.0,-0.35,-0.55,-0.35,0.55,0.0,-0.55,0.0,0.0,0.0,24,4,4,resources/images/medium/med_Q4.jpg,768,1024,0.225,0.3,resources/images/medium/med_S1_4.jpg,1024,768,0.3,0.225,resources/images/medium/med_S2_4.jpg,350,234,0.25,0.167142857,resources/images/medium/med_S3_4.jpg,350,341,0.25,0.243571429,resources/images/medium/med_S4_4.jpg,768,1024,0.1875,0.25,resources/images/medium/med_S5_4.jpg,350,208,0.25,0.148571429,resources/images/medium/med_T4.jpg,768,1024,0.1875,0.25,space,0.10710112500237301,None,0,1,1,4,4,4,24,3,57.66791029200249,,57.66791029200249,space,0.10710112500237301,None,,001,2025-06-27_09h55.56.865,pilot_study,,2025.1.1,2025-06-27 09h56.07.126110 -0400,
0.55,-0.35,0.0,-0.35,-0.55,-0.35,0.55,0.0,-0.55,0.0,0.0,0.0,1,1,0,,,,,,,,,,,,,,,,,,,,,,,,,,,,,,,,,,,,,,,0,1,1,4,,,,,,,,,,,,001,2025-06-27_09h55.56.865,pilot_study,,2025.1.1,2025-06-27 09h56.07.126110 -0400,
-0.55,-0.35,0.0,0.0,0.55,-0.35,-0.55,0.0,0.55,0.0,0.0,-0.35,0,0,0,resources/images/medium/med_Q5.jpg,1024,768,0.3,0.225,resources/images/medium/med_S1_5.jpg,1024,768,0.3,0.225,resources/images/medium/med_S2_5.jpg,1024,768,0.25,0.1875,resources/images/medium/med_S3_5.jpg,3264,1840,0.25,0.140931373,resources/images/medium/med_S4_5.jpg,768,1024,0.1875,0.25,resources/images/medium/med_S5_5.jpg,350,233,0.25,0.166428571,resources/images/medium/med_T5.jpg,768,1024,0.1875,0.25,space,0.045221623993711546,None,0,2,2,0,0,0,0,4,57.904157292010495,,57.904157292010495,space,0.045221623993711546,None,,001,2025-06-27_09h55.56.865,pilot_study,,2025.1.1,2025-06-27 09h56.07.126110 -0400,
-0.55,-0.35,0.0,0.0,0.55,-0.35,-0.55,0.0,0.55,0.0,0.0,-0.35,1,1,0,resources/images/medium/med_Q4.jpg,768,1024,0.225,0.3,resources/images/medium/med_S1_4.jpg,1024,768,0.3,0.225,resources/images/medium/med_S2_4.jpg,350,234,0.25,0.167142857,resources/images/medium/med_S3_4.jpg,350,341,0.25,0.243571429,resources/images/medium/med_S4_4.jpg,768,1024,0.1875,0.25,resources/images/medium/med_S5_4.jpg,350,208,0.25,0.148571429,resources/images/medium/med_T4.jpg,768,1024,0.1875,0.25,space,0.11984591600776184,None,0,2,2,0,0,1,1,3,58.01243041700218,,58.01243041700218,space,0.11984591600776184,None,,001,2025-06-27_09h55.56.865,pilot_study,,2025.1.1,2025-06-27 09h56.07.126110 -0400,
-0.55,-0.35,0.0,0.0,0.55,-0.35,-0.55,0.0,0.55,0.0,0.0,-0.35,2,2,0,resources/images/medium/med_Q1.jpg,4032,3024,0.3,0.225,resources/images/medium/med_S1_1.jpg,768,1024,0.225,0.3,resources/images/medium/med_S2_1.jpg,768,1024,0.1875,0.25,resources/images/medium/med_S3_1.jpg,350,233,0.25,0.166428571,resources/images/medium/med_S4_1.jpg,768,1024,0.1875,0.25,resources/images/medium/med_S5_1.jpg,768,1040,0.184615385,0.25,resources/images/medium/med_T1.jpg,1024,768,0.25,0.1875,space,0.007682790994294919,None,0,2,2,0,0,2,2,0,58.29453020900837,,58.29453020900837,space,0.007682790994294919,None,,001,2025-06-27_09h55.56.865,pilot_study,,2025.1.1,2025-06-27 09h56.07.126110 -0400,
-0.55,-0.35,0.0,0.0,0.55,-0.35,-0.55,0.0,0.55,0.0,0.0,-0.35,3,3,0,resources/images/medium/med_Q3.jpg,1024,768,0.3,0.225,resources/images/medium/med_S1_3.jpg,4160,2340,0.3,0.16875,resources/images/medium/med_S2_3.jpg,1024,768,0.25,0.1875,resources/images/medium/med_S3_3.jpg,1024,768,0.25,0.1875,resources/images/medium/med_S4_3.jpg,350,197,0.25,0.140714286,resources/images/medium/med_S5_3.jpg,2592,4608,0.140625,0.25,resources/images/medium/med_T3.jpg,1024,768,0.25,0.1875,space,0.09858729099505581,None,0,2,2,0,0,3,3,2,58.55043754201324,,58.55043754201324,space,0.09858729099505581,None,,001,2025-06-27_09h55.56.865,pilot_study,,2025.1.1,2025-06-27 09h56.07.126110 -0400,
-0.55,-0.35,0.0,0.0,0.55,-0.35,-0.55,0.0,0.55,0.0,0.0,-0.35,4,4,0,resources/images/medium/med_Q2.jpg,1024,768,0.3,0.225,resources/images/medium/med_S1_2.jpg,4032,3024,0.3,0.225,resources/images/medium/med_S2_2.jpg,250,233,0.25,0.233,resources/images/medium/med_S3_2.jpg,1024,768,0.25,0.1875,resources/images/medium/med_S4_2.jpg,350,233,0.25,0.166428571,resources/images/medium/med_S5_2.jpg,350,233,0.25,0.166428571,resources/images/medium/med_T2.jpg,4032,2268,0.25,0.140625,space,0.10803974900045432,None,0,2,2,0,0,4,4,1,58.89410866700928,,58.89410866700928,space,0.10803974900045432,None,,001,2025-06-27_09h55.56.865,pilot_study,,2025.1.1,2025-06-27 09h56.07.126110 -0400,
-0.55,-0.35,0.0,0.0,0.55,-0.35,-0.55,0.0,0.55,0.0,0.0,-0.35,5,0,1,resources/images/medium/med_Q2.jpg,1024,768,0.3,0.225,resources/images/medium/med_S1_2.jpg,4032,3024,0.3,0.225,resources/images/medium/med_S2_2.jpg,250,233,0.25,0.233,resources/images/medium/med_S3_2.jpg,1024,768,0.25,0.1875,resources/images/medium/med_S4_2.jpg,350,233,0.25,0.166428571,resources/images/medium/med_S5_2.jpg,350,233,0.25,0.166428571,resources/images/medium/med_T2.jpg,4032,2268,0.25,0.140625,space,0.13882691600883845,None,0,2,2,0,1,0,5,1,59.2080948340008,,59.2080948340008,space,0.13882691600883845,None,,001,2025-06-27_09h55.56.865,pilot_study,,2025.1.1,2025-06-27 09h56.07.126110 -0400,
-0.55,-0.35,0.0,0.0,0.55,-0.35,-0.55,0.0,0.55,0.0,0.0,-0.35,6,1,1,resources/images/medium/med_Q4.jpg,768,1024,0.225,0.3,resources/images/medium/med_S1_4.jpg,1024,768,0.3,0.225,resources/images/medium/med_S2_4.jpg,350,234,0.25,0.167142857,resources/images/medium/med_S3_4.jpg,350,341,0.25,0.243571429,resources/images/medium/med_S4_4.jpg,768,1024,0.1875,0.25,resources/images/medium/med_S5_4.jpg,350,208,0.25,0.148571429,resources/images/medium/med_T4.jpg,768,1024,0.1875,0.25,space,0.11350320800556801,None,0,2,2,0,1,1,6,3,59.420520375002525,,59.420520375002525,space,0.11350320800556801,None,,001,2025-06-27_09h55.56.865,pilot_study,,2025.1.1,2025-06-27 09h56.07.126110 -0400,
-0.55,-0.35,0.0,0.0,0.55,-0.35,-0.55,0.0,0.55,0.0,0.0,-0.35,7,2,1,resources/images/medium/med_Q5.jpg,1024,768,0.3,0.225,resources/images/medium/med_S1_5.jpg,1024,768,0.3,0.225,resources/images/medium/med_S2_5.jpg,1024,768,0.25,0.1875,resources/images/medium/med_S3_5.jpg,3264,1840,0.25,0.140931373,resources/images/medium/med_S4_5.jpg,768,1024,0.1875,0.25,resources/images/medium/med_S5_5.jpg,350,233,0.25,0.166428571,resources/images/medium/med_T5.jpg,768,1024,0.1875,0.25,space,0.05898583299131133,None,0,2,2,0,1,2,7,4,59.64582662501198,,59.64582662501198,space,0.05898583299131133,None,,001,2025-06-27_09h55.56.865,pilot_study,,2025.1.1,2025-06-27 09h56.07.126110 -0400,
-0.55,-0.35,0.0,0.0,0.55,-0.35,-0.55,0.0,0.55,0.0,0.0,-0.35,8,3,1,resources/images/medium/med_Q3.jpg,1024,768,0.3,0.225,resources/images/medium/med_S1_3.jpg,4160,2340,0.3,0.16875,resources/images/medium/med_S2_3.jpg,1024,768,0.25,0.1875,resources/images/medium/med_S3_3.jpg,1024,768,0.25,0.1875,resources/images/medium/med_S4_3.jpg,350,197,0.25,0.140714286,resources/images/medium/med_S5_3.jpg,2592,4608,0.140625,0.25,resources/images/medium/med_T3.jpg,1024,768,0.25,0.1875,space,0.09776416599925142,None,0,2,2,0,1,3,8,2,59.95260429200425,,59.95260429200425,space,0.09776416599925142,None,,001,2025-06-27_09h55.56.865,pilot_study,,2025.1.1,2025-06-27 09h56.07.126110 -0400,
-0.55,-0.35,0.0,0.0,0.55,-0.35,-0.55,0.0,0.55,0.0,0.0,-0.35,9,4,1,resources/images/medium/med_Q1.jpg,4032,3024,0.3,0.225,resources/images/medium/med_S1_1.jpg,768,1024,0.225,0.3,resources/images/medium/med_S2_1.jpg,768,1024,0.1875,0.25,resources/images/medium/med_S3_1.jpg,350,233,0.25,0.166428571,resources/images/medium/med_S4_1.jpg,768,1024,0.1875,0.25,resources/images/medium/med_S5_1.jpg,768,1040,0.184615385,0.25,resources/images/medium/med_T1.jpg,1024,768,0.25,0.1875,space,0.16055491600127425,None,0,2,2,0,1,4,9,0,60.22733816700929,,60.22733816700929,space,0.16055491600127425,None,,001,2025-06-27_09h55.56.865,pilot_study,,2025.1.1,2025-06-27 09h56.07.126110 -0400,
-0.55,-0.35,0.0,0.0,0.55,-0.35,-0.55,0.0,0.55,0.0,0.0,-0.35,10,0,2,resources/images/medium/med_Q2.jpg,1024,768,0.3,0.225,resources/images/medium/med_S1_2.jpg,4032,3024,0.3,0.225,resources/images/medium/med_S2_2.jpg,250,233,0.25,0.233,resources/images/medium/med_S3_2.jpg,1024,768,0.25,0.1875,resources/images/medium/med_S4_2.jpg,350,233,0.25,0.166428571,resources/images/medium/med_S5_2.jpg,350,233,0.25,0.166428571,resources/images/medium/med_T2.jpg,4032,2268,0.25,0.140625,space,0.11468983300437685,None,0,2,2,0,2,0,10,1,60.62892941701284,,60.62892941701284,space,0.11468983300437685,None,,001,2025-06-27_09h55.56.865,pilot_study,,2025.1.1,2025-06-27 09h56.07.126110 -0400,
-0.55,-0.35,0.0,0.0,0.55,-0.35,-0.55,0.0,0.55,0.0,0.0,-0.35,11,1,2,resources/images/medium/med_Q3.jpg,1024,768,0.3,0.225,resources/images/medium/med_S1_3.jpg,4160,2340,0.3,0.16875,resources/images/medium/med_S2_3.jpg,1024,768,0.25,0.1875,resources/images/medium/med_S3_3.jpg,1024,768,0.25,0.1875,resources/images/medium/med_S4_3.jpg,350,197,0.25,0.140714286,resources/images/medium/med_S5_3.jpg,2592,4608,0.140625,0.25,resources/images/medium/med_T3.jpg,1024,768,0.25,0.1875,space,0.07750854099867865,None,0,2,2,0,2,1,11,2,61.00502412499918,,61.00502412499918,space,0.07750854099867865,None,,001,2025-06-27_09h55.56.865,pilot_study,,2025.1.1,2025-06-27 09h56.07.126110 -0400,
-0.55,-0.35,0.0,0.0,0.55,-0.35,-0.55,0.0,0.55,0.0,0.0,-0.35,12,2,2,resources/images/medium/med_Q4.jpg,768,1024,0.225,0.3,resources/images/medium/med_S1_4.jpg,1024,768,0.3,0.225,resources/images/medium/med_S2_4.jpg,350,234,0.25,0.167142857,resources/images/medium/med_S3_4.jpg,350,341,0.25,0.243571429,resources/images/medium/med_S4_4.jpg,768,1024,0.1875,0.25,resources/images/medium/med_S5_4.jpg,350,208,0.25,0.148571429,resources/images/medium/med_T4.jpg,768,1024,0.1875,0.25,space,0.10287499899277464,None,0,2,2,0,2,2,12,3,61.16189162500086,,61.16189162500086,space,0.10287499899277464,None,,001,2025-06-27_09h55.56.865,pilot_study,,2025.1.1,2025-06-27 09h56.07.126110 -0400,
-0.55,-0.35,0.0,0.0,0.55,-0.35,-0.55,0.0,0.55,0.0,0.0,-0.35,13,3,2,resources/images/medium/med_Q5.jpg,1024,768,0.3,0.225,resources/images/medium/med_S1_5.jpg,1024,768,0.3,0.225,resources/images/medium/med_S2_5.jpg,1024,768,0.25,0.1875,resources/images/medium/med_S3_5.jpg,3264,1840,0.25,0.140931373,resources/images/medium/med_S4_5.jpg,768,1024,0.1875,0.25,resources/images/medium/med_S5_5.jpg,350,233,0.25,0.166428571,resources/images/medium/med_T5.jpg,768,1024,0.1875,0.25,space,0.06645020699943416,None,0,2,2,0,2,3,13,4,61.37927941700036,,61.37927941700036,space,0.06645020699943416,None,,001,2025-06-27_09h55.56.865,pilot_study,,2025.1.1,2025-06-27 09h56.07.126110 -0400,
-0.55,-0.35,0.0,0.0,0.55,-0.35,-0.55,0.0,0.55,0.0,0.0,-0.35,14,4,2,resources/images/medium/med_Q1.jpg,4032,3024,0.3,0.225,resources/images/medium/med_S1_1.jpg,768,1024,0.225,0.3,resources/images/medium/med_S2_1.jpg,768,1024,0.1875,0.25,resources/images/medium/med_S3_1.jpg,350,233,0.25,0.166428571,resources/images/medium/med_S4_1.jpg,768,1024,0.1875,0.25,resources/images/medium/med_S5_1.jpg,768,1040,0.184615385,0.25,resources/images/medium/med_T1.jpg,1024,768,0.25,0.1875,space,0.007365458004642278,None,0,2,2,0,2,4,14,0,61.61853695900936,,61.61853695900936,space,0.007365458004642278,None,,001,2025-06-27_09h55.56.865,pilot_study,,2025.1.1,2025-06-27 09h56.07.126110 -0400,
-0.55,-0.35,0.0,0.0,0.55,-0.35,-0.55,0.0,0.55,0.0,0.0,-0.35,15,0,3,resources/images/medium/med_Q4.jpg,768,1024,0.225,0.3,resources/images/medium/med_S1_4.jpg,1024,768,0.3,0.225,resources/images/medium/med_S2_4.jpg,350,234,0.25,0.167142857,resources/images/medium/med_S3_4.jpg,350,341,0.25,0.243571429,resources/images/medium/med_S4_4.jpg,768,1024,0.1875,0.25,resources/images/medium/med_S5_4.jpg,350,208,0.25,0.148571429,resources/images/medium/med_T4.jpg,768,1024,0.1875,0.25,space,0.12985124900296796,None,0,2,2,0,3,0,15,3,61.684681709011784,,61.684681709011784,space,0.12985124900296796,None,,001,2025-06-27_09h55.56.865,pilot_study,,2025.1.1,2025-06-27 09h56.07.126110 -0400,
-0.55,-0.35,0.0,0.0,0.55,-0.35,-0.55,0.0,0.55,0.0,0.0,-0.35,16,1,3,resources/images/medium/med_Q3.jpg,1024,768,0.3,0.225,resources/images/medium/med_S1_3.jpg,4160,2340,0.3,0.16875,resources/images/medium/med_S2_3.jpg,1024,768,0.25,0.1875,resources/images/medium/med_S3_3.jpg,1024,768,0.25,0.1875,resources/images/medium/med_S4_3.jpg,350,197,0.25,0.140714286,resources/images/medium/med_S5_3.jpg,2592,4608,0.140625,0.25,resources/images/medium/med_T3.jpg,1024,768,0.25,0.1875,space,0.10623716600821353,None,0,2,2,0,3,1,16,2,62.06577995901171,,62.06577995901171,space,0.10623716600821353,None,,001,2025-06-27_09h55.56.865,pilot_study,,2025.1.1,2025-06-27 09h56.07.126110 -0400,
,,,,,,,,,,,,17,2,3,resources/images/medium/med_Q1.jpg,4032,3024,0.3,0.225,resources/images/medium/med_S1_1.jpg,768,1024,0.225,0.3,resources/images/medium/med_S2_1.jpg,768,1024,0.1875,0.25,resources/images/medium/med_S3_1.jpg,350,233,0.25,0.166428571,resources/images/medium/med_S4_1.jpg,768,1024,0.1875,0.25,resources/images/medium/med_S5_1.jpg,768,1040,0.184615385,0.25,resources/images/medium/med_T1.jpg,1024,768,0.25,0.1875,,,,,,,,3,2,17,0,62.353562209013035,,62.353562209013035,,,,,,,,,,,
