set_img,correct,thisN,thisTrialN,thisRepN,key_easy.keys,key_easy.corr,key_easy.rt,key_easy.duration,key_resp.keys,key_resp.corr,key_resp.rt,key_resp.duration,key_hard.keys,key_hard.corr,key_hard.rt,key_hard.duration,set_img2,correct2,key_resp2.keys,key_resp2.corr,key_resp2.rt,key_resp2.duration,trialsEasy.thisRepN,trialsEasy.thisTrialN,trialsEasy.thisN,trialsEasy.thisIndex,trialsMed.thisRepN,trialsMed.thisTrialN,trialsMed.thisN,trialsMed.thisIndex,trialsHard.thisRepN,trialsHard.thisTrialN,trialsHard.thisN,trialsHard.thisIndex,trialsImp.thisRepN,trialsImp.thisTrialN,trialsImp.thisN,trialsImp.thisIndex,thisRow.t,notes,consent_key.keys,consent_key.rt,consent_key.duration,trialsEasy.key_easy.keys,trialsEasy.key_easy.corr,trialsEasy.key_easy.rt,trialsEasy.key_easy.duration,trialsMed.key_resp.keys,trialsMed.key_resp.corr,trialsMed.key_resp.rt,trialsMed.key_resp.duration,trialsHard.key_hard.keys,trialsHard.key_hard.corr,trialsHard.key_hard.rt,trialsHard.key_hard.duration,imp_sets.started,imp_sets.stopped,trialsImp.key_resp2.keys,trialsImp.key_resp2.corr,trialsImp.key_resp2.rt,trialsImp.key_resp2.duration,participant,session,date,expName,expVersion,psychopyVersion,expStart,
,,,,,,,,,,,,,,,,,,,,,,,,,,,,,,,,,,,,,,,,,,,,,,,,,,,,,,,,,,,,,,,001,2025-06-30_14h35.54.961,pilot_study,,2025.1.1,2025-06-30 14h36.01.677499 -0400,
,,,,,,,,,,,,,,,,,,,,,,,,,,,,,,,,,,,,,,,,,y,1.6092743749904912,None,,,,,,,,,,,,,,,,,,,,001,2025-06-30_14h35.54.961,pilot_study,,2025.1.1,2025-06-30 14h36.01.677499 -0400,
,,,,,,,,,,,,,,,,,,,,,,,,,,,,,,,,,,,,,,,,,,,,,,,,,,,,,,,,,,,,,,,001,2025-06-30_14h35.54.961,pilot_study,,2025.1.1,2025-06-30 14h36.01.677499 -0400,
resources/images/easy/easy_1.png,6,0,0,0,6,1,3.842951541999355,None,,,,,,,,,,,,,,,0,0,0,0,,,,,,,,,,,,,6.696832249988802,,,,,6,1,3.842951541999355,None,,,,,,,,,,,,,,,,001,2025-06-30_14h35.54.961,pilot_study,,2025.1.1,2025-06-30 14h36.01.677499 -0400,
resources/images/easy/easy_5.png,5,1,1,0,5,1,5.935006790998159,None,,,,,,,,,,,,,,,0,1,1,4,,,,,,,,,,,,,11.653272249997826,,,,,5,1,5.935006790998159,None,,,,,,,,,,,,,,,,001,2025-06-30_14h35.54.961,pilot_study,,2025.1.1,2025-06-30 14h36.01.677499 -0400,
resources/images/easy/easy_2.png,5,2,2,0,5,1,5.319142499996815,None,,,,,,,,,,,,,,,0,2,2,1,,,,,,,,,,,,,18.698672458995134,,,,,5,1,5.319142499996815,None,,,,,,,,,,,,,,,,001,2025-06-30_14h35.54.961,pilot_study,,2025.1.1,2025-06-30 14h36.01.677499 -0400,
resources/images/easy/easy_4.png,1,3,3,0,1,1,2.3317699580220506,None,,,,,,,,,,,,,,,0,3,3,3,,,,,,,,,,,,,25.123701333999634,,,,,1,1,2.3317699580220506,None,,,,,,,,,,,,,,,,001,2025-06-30_14h35.54.961,pilot_study,,2025.1.1,2025-06-30 14h36.01.677499 -0400,
resources/images/easy/easy_3.png,3,4,4,0,3,1,4.122397875005845,None,,,,,,,,,,,,,,,0,4,4,2,,,,,,,,,,,,,28.556283999991138,,,,,3,1,4.122397875005845,None,,,,,,,,,,,,,,,,001,2025-06-30_14h35.54.961,pilot_study,,2025.1.1,2025-06-30 14h36.01.677499 -0400,
,,,,,,,,,,,,,,,,,,,,,,,,,,,,,,,,,,,,,,,,,,,,,,,,,,,,,,,,,,,,,,,001,2025-06-30_14h35.54.961,pilot_study,,2025.1.1,2025-06-30 14h36.01.677499 -0400,
resources/images/m4.jpg,6,0,0,0,,,,,6,1,6.486864209000487,None,,,,,,,,,,,,,,,0,0,0,3,,,,,,,,,35.710909583984176,,,,,,,,,6,1,6.486864209000487,None,,,,,,,,,,,,001,2025-06-30_14h35.54.961,pilot_study,,2025.1.1,2025-06-30 14h36.01.677499 -0400,
resources/images/m3.jpg,3,1,1,0,,,,,3,1,5.495984374982072,None,,,,,,,,,,,,,,,0,1,1,2,,,,,,,,,43.23852512499434,,,,,,,,,3,1,5.495984374982072,None,,,,,,,,,,,,001,2025-06-30_14h35.54.961,pilot_study,,2025.1.1,2025-06-30 14h36.01.677499 -0400,
resources/images/m2.jpg,1,2,2,0,,,,,4,0,3.819081166991964,None,,,,,,,,,,,,,,,0,2,2,1,,,,,,,,,49.77143029199215,,,,,,,,,4,0,3.819081166991964,None,,,,,,,,,,,,001,2025-06-30_14h35.54.961,pilot_study,,2025.1.1,2025-06-30 14h36.01.677499 -0400,
resources/images/m1.jpg,3,3,3,0,,,,,3,1,2.7187335419876035,None,,,,,,,,,,,,,,,0,3,3,0,,,,,,,,,54.63472004199866,,,,,,,,,3,1,2.7187335419876035,None,,,,,,,,,,,,001,2025-06-30_14h35.54.961,pilot_study,,2025.1.1,2025-06-30 14h36.01.677499 -0400,
resources/images/m5.jpg,4,4,4,0,,,,,4,1,2.5120776249968912,None,,,,,,,,,,,,,,,0,4,4,4,,,,,,,,,58.385503916972084,,,,,,,,,4,1,2.5120776249968912,None,,,,,,,,,,,,001,2025-06-30_14h35.54.961,pilot_study,,2025.1.1,2025-06-30 14h36.01.677499 -0400,
,,,,,,,,,,,,,,,,,,,,,,,,,,,,,,,,,,,,,,,,,,,,,,,,,,,,,,,,,,,,,,,001,2025-06-30_14h35.54.961,pilot_study,,2025.1.1,2025-06-30 14h36.01.677499 -0400,
resources/images/hard/hard_1.png,5,0,0,0,,,,,,,,,5,1,4.072765540971886,None,,,,,,,,,,,,,,,0,0,0,0,,,,,63.98740374998306,,,,,,,,,,,,,5,1,4.072765540971886,None,,,,,,,,001,2025-06-30_14h35.54.961,pilot_study,,2025.1.1,2025-06-30 14h36.01.677499 -0400,
resources/images/hard/hard_5.png,2,1,1,0,,,,,,,,,4,0,4.96283516701078,None,,,,,,,,,,,,,,,0,1,1,4,,,,,69.16716170898871,,,,,,,,,,,,,4,0,4.96283516701078,None,,,,,,,,001,2025-06-30_14h35.54.961,pilot_study,,2025.1.1,2025-06-30 14h36.01.677499 -0400,
resources/images/hard/hard_4.png,4,2,2,0,,,,,,,,,5,0,10.075918249989627,None,,,,,,,,,,,,,,,0,2,2,3,,,,,75.2279813339992,,,,,,,,,,,,,5,0,10.075918249989627,None,,,,,,,,001,2025-06-30_14h35.54.961,pilot_study,,2025.1.1,2025-06-30 14h36.01.677499 -0400,
resources/images/hard/hard_2.png,2,3,3,0,,,,,,,,,6,0,5.302585042023566,None,,,,,,,,,,,,,,,0,3,3,1,,,,,86.39938254197477,,,,,,,,,,,,,6,0,5.302585042023566,None,,,,,,,,001,2025-06-30_14h35.54.961,pilot_study,,2025.1.1,2025-06-30 14h36.01.677499 -0400,
resources/images/hard/hard_3.png,1,4,4,0,,,,,,,,,5,0,3.5012506669736467,None,,,,,,,,,,,,,,,0,4,4,2,,,,,92.79758758397656,,,,,,,,,,,,,5,0,3.5012506669736467,None,,,,,,,,001,2025-06-30_14h35.54.961,pilot_study,,2025.1.1,2025-06-30 14h36.01.677499 -0400,
,,,,,,,,,,,,,,,,,,,,,,,,,,,,,,,,,,,,,,,,,,,,,,,,,,,,,,,,,,,,,,,001,2025-06-30_14h35.54.961,pilot_study,,2025.1.1,2025-06-30 14h36.01.677499 -0400,
,,0,0,0,,,,,,,,,,,,,resources/images/i3.jpg,4,2,0,2.117398417001823,None,,,,,,,,,,,,,0,0,0,2,99.3411818339955,,,,,,,,,,,,,,,,,99.33737062499858,101.46702237499994,2,0,2.117398417001823,None,,001,2025-06-30_14h35.54.961,pilot_study,,2025.1.1,2025-06-30 14h36.01.677499 -0400,
,,1,1,0,,,,,,,,,,,,,resources/images/i1.jpg,2,5,0,3.2666578339994885,None,,,,,,,,,,,,,0,1,1,0,102.50626704198658,,,,,,,,,,,,,,,,,102.50212499999907,105.77013079199241,5,0,3.2666578339994885,None,,001,2025-06-30_14h35.54.961,pilot_study,,2025.1.1,2025-06-30 14h36.01.677499 -0400,
,,2,2,0,,,,,,,,,,,,,resources/images/i5.jpg,5,1,0,3.9263963749981485,None,,,,,,,,,,,,,0,2,2,4,106.80615962497541,,,,,,,,,,,,,,,,,106.80211287498241,110.73576233399217,1,0,3.9263963749981485,None,,001,2025-06-30_14h35.54.961,pilot_study,,2025.1.1,2025-06-30 14h36.01.677499 -0400,
,,3,3,0,,,,,,,,,,,,,resources/images/i4.jpg,3,2,0,1.64393808299792,None,,,,,,,,,,,,,0,3,3,3,111.77321487499285,,,,,,,,,,,,,,,,,111.76899462498841,113.41976712498581,2,0,1.64393808299792,None,,001,2025-06-30_14h35.54.961,pilot_study,,2025.1.1,2025-06-30 14h36.01.677499 -0400,
,,4,4,0,,,,,,,,,,,,,resources/images/i2.jpg,1,1,1,1.3814200829947367,None,,,,,,,,,,,,,0,4,4,1,114.45373887498863,,,,,,,,,,,,,,,,,114.44943333399715,115.83505295898067,1,1,1.3814200829947367,None,,001,2025-06-30_14h35.54.961,pilot_study,,2025.1.1,2025-06-30 14h36.01.677499 -0400,
